File: Electrochemical trials/3 CV 300_M1_S2_test2_cdl.DTA
EXPLAIN
TAG	CV
TITLE	LABEL	Cyclic Voltammetry	Test Identifier
DATE	LABEL	18/12/2024	Date
TIME	LABEL	20:58:33	Time
NOTES	NOTES	1	Notes...

PSTAT	PSTAT	IFC1010-33102	Potentiostat
VINIT	POTEN	0,00000E+000	F	Initial E (V)
VLIMIT1	POTEN	5,00000E-002	T	Scan Limit 1 (V)
VLIMIT2	POTEN	-5,00000E-002	T	Scan Limit 2 (V)
VFINAL	POTEN	0,00000E+000	F	Final E (V)
SCANRATE	QUANT	2,99999E+002	Scan Rate (mV/s)
STEPSIZE	QUANT	2,00000E+000	Step Size (mV)
CYCLES	IQUANT	1	Cycles (#)
IMODE	SELECTOR	0	I/E Range Mode
IRANGE	QUANT	3,00000E-001	Max Current (mA)
AREA	QUANT	1,00000E+000	Sample Area (cm^2)
EQDELAY	QUANT	0,00000E+000	Equil. Time (s)
IRCOMP	SELECTOR	0	IRComp
PFCOR	QUANT	5,00000E+001	PF Corr. (ohm)
SAMPLINGMODE	SELECTOR	1	Sampling Mode
EOC	QUANT	0,144959	Open Circuit (V)
ELECTRODETYPE	SELECTOR	0	Electrode Type
STRIPPING	TOGGLE	F	Used for Stripping
SEQUENCER	TOGGLE	TRUE	Run as Sequence
PSTATMODEL	IQUANT	64	Pstat Model
PSTATSECTION	LABEL	IFC1010-33102	Pstat Section
PSTATSERIALNO	LABEL	33102	Pstat Serial Number
CTRLMODE	IQUANT	1	Control Mode
ELECTROMETER	IQUANT	0	RE=0 or CS=1
IESTAB	IQUANT	2	I/E Stability
CASPEED	IQUANT	4	Control Amp Speed
CONVENTION	IQUANT	1	Current Convention
ICHRANGE	IQUANT	2	Ich Range
ICHRANGEMODE	TOGGLE	F	Ich Auto Range
ICHOFFSETENABLE	TOGGLE	F	Ich Offset Enable
ICHOFFSET	QUANT	0	Ich Offset (V)
ICHFILTER	IQUANT	3	Ich Filter
VCHRANGE	IQUANT	1	Vch Range
VCHRANGEMODE	TOGGLE	F	Vch Auto Range
VCHOFFSETENABLE	TOGGLE	F	Vch Offset Enable
VCHOFFSET	QUANT	0	Vch Offset (V)
VCHFILTER	IQUANT	3	Vch Filter
IERANGELOWERLIMIT	IQUANT	6	I/E Range Lower Limit
IERANGEMODE	TOGGLE	T	I/E AutoRange
IERANGE	IQUANT	9	I/E Range
ACHSELECT	IQUANT	0	Ach Select
ACHRANGE	IQUANT	2	Ach Range
ACHOFFSETENABLE	TOGGLE	F	Ach Offset Enable
ACHOFFSET	QUANT	0	Ach Offset (V)
ACHFILTER	IQUANT	1	Ach Filter
SENSECABLEID	IQUANT	14	Sense Cable ID
PWRCABLEID	IQUANT	14	Power Cable ID
DCCALDATE	LABEL	11/7/2024	DC Calibration Date
ACCALDATE	LABEL	6/15/2022	AC Calibration Date
FRAMEWORKVERSION	LABEL	7.10.0	Framework Version
INSTRUMENTVERSION	LABEL	4.71	Instrument Version
COMMVERSION	LABEL	3.10	Communications Version
CPUPLDVERSION	LABEL	2.22	CPU PLD Version
CTRLPLDVERSION	LABEL	0.00	CTRL PLD Version
PSTATPLDVERSION	LABEL	0.00	PSTAT PLD Version
CURVE1	TABLE
	Pt	T	Vf	Im	Vu	Sig	Ach	IERange	Over	Temp
	#	s	V vs. Ref.	A	V	V	V	#	bits	deg C
	0	0,006667	-7,64853E-005	-2,67635E-004	0,00000E+000	5,50598E-006	0,00000E+000	9	...........	1359,17
	1	0,013333	1,92204E-003	-2,00121E-004	0,00000E+000	2,00452E-003	0,00000E+000	9	...........	1359,17
	2	0,02	3,92206E-003	-1,60665E-004	0,00000E+000	4,00353E-003	0,00000E+000	9	...........	1359,17
	3	0,026667	5,92171E-003	-1,29566E-004	0,00000E+000	6,00255E-003	0,00000E+000	9	...........	1359,17
	4	0,033333	7,92136E-003	-1,04228E-004	0,00000E+000	8,00156E-003	0,00000E+000	9	...........	1359,17
	5	0,04	9,91926E-003	-8,26515E-005	0,00000E+000	1,00006E-002	0,00000E+000	9	...........	1359,17
	6	0,046667	1,19184E-002	-6,40739E-005	0,00000E+000	1,19996E-002	0,00000E+000	9	...........	1359,17
	7	0,053333	1,39706E-002	-1,09060E-004	0,00000E+000	1,39986E-002	0,00000E+000	8	....ih..i..	1359,17
	8	0,06	1,59200E-002	-3,15933E-005	0,00000E+000	1,59976E-002	0,00000E+000	9	...........	1359,17
	9	0,066667	1,79795E-002	-8,84009E-005	0,00000E+000	1,79966E-002	0,00000E+000	8	.....h.....	1359,17
	10	0,073333	2,00076E-002	-7,37191E-005	0,00000E+000	1,99956E-002	0,00000E+000	8	.....h.....	1359,17
	11	0,08	2,20109E-002	-6,12589E-005	0,00000E+000	2,19947E-002	0,00000E+000	8	.....h.....	1359,17
	12	0,086667	2,40209E-002	-5,04449E-005	0,00000E+000	2,40062E-002	0,00000E+000	8	.....h.....	1359,17
	13	0,093333	2,60186E-002	-3,96660E-005	0,00000E+000	2,60052E-002	0,00000E+000	8	.....h.....	1359,17
	14	0,1	2,80163E-002	-3,06794E-005	0,00000E+000	2,80042E-002	0,00000E+000	8	.....h.....	1359,17
	15	0,106667	3,00140E-002	-2,20828E-005	0,00000E+000	3,00032E-002	0,00000E+000	8	.....h.....	1359,17
	16	0,113333	3,20161E-002	-1,39700E-005	0,00000E+000	3,20022E-002	0,00000E+000	8	.....h.....	1359,17
	17	0,12	3,40155E-002	-6,06595E-006	0,00000E+000	3,40012E-002	0,00000E+000	8	.....h.....	1359,17
	18	0,126667	3,60242E-002	1,09390E-005	0,00000E+000	3,60002E-002	0,00000E+000	7	....ih..i..	1359,17
	19	0,133333	3,76605E-002	-1,67541E-005	0,00000E+000	3,79993E-002	0,00000E+000	8	.....h.....	1359,17
	20	0,14	3,99912E-002	5,50568E-006	0,00000E+000	3,99983E-002	0,00000E+000	8	.....h.....	1359,17
	21	0,146667	4,19672E-002	1,09390E-005	0,00000E+000	4,19973E-002	0,00000E+000	7	....ih..i..	1359,17
	22	0,153333	4,36528E-002	2,93902E-006	0,00000E+000	4,39963E-002	0,00000E+000	8	.....h.....	1359,17
	23	0,16	4,59417E-002	1,09390E-005	0,00000E+000	4,59953E-002	0,00000E+000	7	....ih..i..	1359,17
	24	0,166667	4,76472E-002	1,51574E-005	0,00000E+000	4,79943E-002	0,00000E+000	8	.....h.....	1359,17
	25	0,173333	4,99937E-002	3,39096E-005	0,00000E+000	5,00058E-002	0,00000E+000	8	.....h.....	1359,17
	26	0,18	5,20116E-002	4,77204E-005	0,00000E+000	5,20048E-002	0,00000E+000	8	.....h.....	1359,17
	27	0,186667	5,40154E-002	5,31182E-005	0,00000E+000	5,40039E-002	0,00000E+000	8	.....h.....	1359,17
	28	0,193333	5,60088E-002	5,76474E-005	0,00000E+000	5,60029E-002	0,00000E+000	8	.....h.....	1359,17
	29	0,2	5,80091E-002	6,22493E-005	0,00000E+000	5,80019E-002	0,00000E+000	8	.....h.....	1359,17
	30	0,206667	6,00079E-002	6,64294E-005	0,00000E+000	6,00009E-002	0,00000E+000	8	.....h.....	1359,17
	31	0,213333	6,20089E-002	7,04100E-005	0,00000E+000	6,19999E-002	0,00000E+000	8	.....h.....	1359,17
	32	0,22	6,40089E-002	7,48405E-005	0,00000E+000	6,39989E-002	0,00000E+000	8	.....h.....	1359,17
	33	0,226667	6,60012E-002	7,89851E-005	0,00000E+000	6,59979E-002	0,00000E+000	8	.....h.....	1359,17
	34	0,233333	6,80081E-002	8,25419E-005	0,00000E+000	6,79969E-002	0,00000E+000	8	.....h..i..	1359,17
	35	0,24	7,00010E-002	8,56771E-005	0,00000E+000	6,99960E-002	0,00000E+000	8	.....h..i..	1359,17
	36	0,246667	7,19999E-002	8,87350E-005	0,00000E+000	7,19950E-002	0,00000E+000	8	.....h..i..	1359,17
	37	0,253333	7,40013E-002	9,13947E-005	0,00000E+000	7,39940E-002	0,00000E+000	8	.....h..i..	1359,17
	38	0,26	7,59311E-002	1,64495E-004	0,00000E+000	7,60055E-002	0,00000E+000	9	...........	1359,17
	39	0,266667	7,79319E-002	1,70225E-004	0,00000E+000	7,80045E-002	0,00000E+000	9	...........	1359,17
	40	0,273333	7,99344E-002	1,73794E-004	0,00000E+000	8,00035E-002	0,00000E+000	9	...........	1359,17
	41	0,28	8,19351E-002	1,76252E-004	0,00000E+000	8,20025E-002	0,00000E+000	9	...........	1359,17
	42	0,286667	8,39275E-002	1,79122E-004	0,00000E+000	8,40015E-002	0,00000E+000	9	...........	1359,17
	43	0,293333	8,59299E-002	1,82444E-004	0,00000E+000	8,60006E-002	0,00000E+000	9	...........	1359,17
	44	0,3	8,79276E-002	1,84679E-004	0,00000E+000	8,79996E-002	0,00000E+000	9	...........	1359,17
	45	0,306667	8,99275E-002	1,87099E-004	0,00000E+000	8,99986E-002	0,00000E+000	9	...........	1359,17
	46	0,313333	9,19222E-002	1,89615E-004	0,00000E+000	9,19976E-002	0,00000E+000	9	...........	1359,17
	47	0,32	9,39257E-002	1,92530E-004	0,00000E+000	9,39966E-002	0,00000E+000	9	...........	1359,17
	48	0,326667	9,59222E-002	1,94269E-004	0,00000E+000	9,59956E-002	0,00000E+000	9	...........	1359,17
	49	0,333333	9,79214E-002	1,97061E-004	0,00000E+000	9,79946E-002	0,00000E+000	9	...........	1359,17
	50	0,34	9,99189E-002	1,99181E-004	0,00000E+000	9,99937E-002	0,00000E+000	9	...........	1359,17
	51	0,346667	1,01929E-001	2,01887E-004	0,00000E+000	1,02005E-001	0,00000E+000	9	...........	1359,17
	52	0,353333	1,03928E-001	2,03973E-004	0,00000E+000	1,04004E-001	0,00000E+000	9	...........	1359,17
	53	0,36	1,05924E-001	2,05685E-004	0,00000E+000	1,06003E-001	0,00000E+000	9	...........	1359,17
	54	0,366667	1,07926E-001	2,08516E-004	0,00000E+000	1,08002E-001	0,00000E+000	9	...........	1359,17
	55	0,373333	1,09924E-001	2,09612E-004	0,00000E+000	1,10001E-001	0,00000E+000	9	...........	1359,17
	56	0,38	1,11923E-001	2,11839E-004	0,00000E+000	1,12000E-001	0,00000E+000	9	...........	1359,17
	57	0,386667	1,13923E-001	2,14155E-004	0,00000E+000	1,13999E-001	0,00000E+000	9	...........	1359,17
	58	0,393333	1,15924E-001	2,15962E-004	0,00000E+000	1,15998E-001	0,00000E+000	9	...........	1359,17
	59	0,4	1,17922E-001	2,17244E-004	0,00000E+000	1,17997E-001	0,00000E+000	9	...........	1359,17
	60	0,406667	1,19917E-001	2,18473E-004	0,00000E+000	1,19996E-001	0,00000E+000	9	...........	1359,17
	61	0,413333	1,21920E-001	2,19714E-004	0,00000E+000	1,21995E-001	0,00000E+000	9	...........	1359,17
	62	0,42	1,23915E-001	2,22677E-004	0,00000E+000	1,23994E-001	0,00000E+000	9	...........	1359,17
	63	0,426667	1,25929E-001	2,24759E-004	0,00000E+000	1,26006E-001	0,00000E+000	9	...........	1359,17
	64	0,433333	1,27925E-001	2,26381E-004	0,00000E+000	1,28005E-001	0,00000E+000	9	...........	1359,17
	65	0,44	1,29923E-001	2,28326E-004	0,00000E+000	1,30004E-001	0,00000E+000	9	...........	1359,17
	66	0,446667	1,31929E-001	2,29052E-004	0,00000E+000	1,32003E-001	0,00000E+000	9	...........	1359,17
	67	0,453333	1,33924E-001	2,31762E-004	0,00000E+000	1,34002E-001	0,00000E+000	9	...........	1359,17
	68	0,46	1,35925E-001	2,32386E-004	0,00000E+000	1,36001E-001	0,00000E+000	9	...........	1359,17
	69	0,466667	1,37923E-001	2,34900E-004	0,00000E+000	1,38000E-001	0,00000E+000	9	...........	1359,17
	70	0,473333	1,39919E-001	2,35925E-004	0,00000E+000	1,39999E-001	0,00000E+000	9	...........	1359,17
	71	0,48	1,41923E-001	2,37353E-004	0,00000E+000	1,41998E-001	0,00000E+000	9	...........	1359,17
	72	0,486667	1,43924E-001	2,39823E-004	0,00000E+000	1,43997E-001	0,00000E+000	9	...........	1359,17
	73	0,493333	1,45920E-001	2,41053E-004	0,00000E+000	1,45996E-001	0,00000E+000	9	...........	1359,17
	74	0,5	1,47920E-001	2,42672E-004	0,00000E+000	1,47995E-001	0,00000E+000	9	...........	1359,17
	75	0,506667	1,49914E-001	2,44750E-004	0,00000E+000	1,49994E-001	0,00000E+000	9	...........	1359,17
	76	0,513333	1,51928E-001	2,46874E-004	0,00000E+000	1,52005E-001	0,00000E+000	9	...........	1359,17
	77	0,52	1,53933E-001	2,47906E-004	0,00000E+000	1,54004E-001	0,00000E+000	9	...........	1359,17
	78	0,526667	1,55923E-001	2,49426E-004	0,00000E+000	1,56004E-001	0,00000E+000	9	...........	1359,17
	79	0,533333	1,57927E-001	2,52415E-004	0,00000E+000	1,58003E-001	0,00000E+000	9	...........	1359,17
	80	0,54	1,59923E-001	2,53705E-004	0,00000E+000	1,60002E-001	0,00000E+000	9	...........	1359,17
	81	0,546667	1,61927E-001	2,55599E-004	0,00000E+000	1,62001E-001	0,00000E+000	9	...........	1359,17
	82	0,553333	1,63922E-001	2,57914E-004	0,00000E+000	1,64000E-001	0,00000E+000	9	...........	1359,17
	83	0,56	1,65916E-001	2,60249E-004	0,00000E+000	1,65999E-001	0,00000E+000	9	...........	1359,17
	84	0,566667	1,67918E-001	2,61576E-004	0,00000E+000	1,67998E-001	0,00000E+000	9	...........	1359,17
	85	0,573333	1,69921E-001	2,65049E-004	0,00000E+000	1,69997E-001	0,00000E+000	9	...........	1359,17
	86	0,58	1,71919E-001	2,65823E-004	0,00000E+000	1,71996E-001	0,00000E+000	9	...........	1359,17
	87	0,586667	1,73918E-001	2,68854E-004	0,00000E+000	1,73995E-001	0,00000E+000	9	...........	1359,17
	88	0,593333	1,75916E-001	2,71495E-004	0,00000E+000	1,75994E-001	0,00000E+000	9	...........	1359,17
	89	0,6	1,77926E-001	2,74217E-004	0,00000E+000	1,78005E-001	0,00000E+000	9	...........	1359,17
	90	0,606667	1,79931E-001	2,76865E-004	0,00000E+000	1,80004E-001	0,00000E+000	9	...........	1359,17
	91	0,613333	1,81927E-001	2,78542E-004	0,00000E+000	1,82003E-001	0,00000E+000	9	...........	1359,17
	92	0,62	1,83924E-001	2,81704E-004	0,00000E+000	1,84002E-001	0,00000E+000	9	...........	1359,17
	93	0,626667	1,85924E-001	2,85063E-004	0,00000E+000	1,86001E-001	0,00000E+000	9	...........	1359,17
	94	0,633333	1,87924E-001	2,87400E-004	0,00000E+000	1,88000E-001	0,00000E+000	9	...........	1359,17
	95	0,64	1,89928E-001	2,91393E-004	0,00000E+000	1,89999E-001	0,00000E+000	9	...........	1359,17
	96	0,646667	1,91926E-001	2,93309E-004	0,00000E+000	1,91998E-001	0,00000E+000	9	...........	1359,17
	97	0,653333	1,93921E-001	2,96892E-004	0,00000E+000	1,93997E-001	0,00000E+000	9	...........	1359,17
	98	0,66	1,91913E-001	1,86613E-004	0,00000E+000	1,91998E-001	0,00000E+000	9	...........	1359,17
	99	0,666667	1,89916E-001	1,30312E-004	0,00000E+000	1,89999E-001	0,00000E+000	9	...........	1359,17
	100	0,673333	1,87914E-001	9,13715E-005	0,00000E+000	1,88000E-001	0,00000E+000	9	...........	1359,17
	101	0,68	1,85911E-001	6,15191E-005	0,00000E+000	1,86001E-001	0,00000E+000	9	...........	1359,17
	102	0,686667	1,83817E-001	1,07010E-004	0,00000E+000	1,84002E-001	0,00000E+000	8	....ih..i..	1359,17
	103	0,693333	1,81914E-001	1,97788E-005	0,00000E+000	1,82003E-001	0,00000E+000	9	...........	1359,17
	104	0,7	1,79810E-001	7,70111E-005	0,00000E+000	1,80004E-001	0,00000E+000	8	.....h.....	1359,17
	105	0,706667	1,77774E-001	5,86287E-005	0,00000E+000	1,78005E-001	0,00000E+000	8	.....h.....	1359,17
	106	0,713333	1,75764E-001	4,54951E-005	0,00000E+000	1,75994E-001	0,00000E+000	8	.....h.....	1359,17
	107	0,72	1,73770E-001	3,44418E-005	0,00000E+000	1,73995E-001	0,00000E+000	8	.....h.....	1359,17
	108	0,726667	1,71774E-001	2,45049E-005	0,00000E+000	1,71996E-001	0,00000E+000	8	.....h.....	1359,17
	109	0,733333	1,69784E-001	1,66863E-005	0,00000E+000	1,69997E-001	0,00000E+000	8	.....h.....	1359,17
	110	0,74	1,67778E-001	8,15621E-006	0,00000E+000	1,67998E-001	0,00000E+000	8	.....h.....	1359,17
	111	0,746667	1,65788E-001	9,95472E-007	0,00000E+000	1,65999E-001	0,00000E+000	8	.....h.....	1359,17
	112	0,753333	1,63836E-001	-1,09343E-005	0,00000E+000	1,64000E-001	0,00000E+000	7	....ih..i..	1359,17
	113	0,76	1,62187E-001	2,17789E-005	0,00000E+000	1,62001E-001	0,00000E+000	8	.....h.....	1359,17
	114	0,766667	1,59822E-001	-7,17067E-006	0,00000E+000	1,60002E-001	0,00000E+000	8	.....h.....	1359,17
	115	0,773333	1,57883E-001	-1,09343E-005	0,00000E+000	1,58003E-001	0,00000E+000	7	....ih..i..	1359,17
	116	0,78	1,56198E-001	1,31453E-006	0,00000E+000	1,56004E-001	0,00000E+000	8	.....h.....	1359,17
	117	0,786667	1,53903E-001	-1,09343E-005	0,00000E+000	1,54004E-001	0,00000E+000	7	....ih..i..	1359,17
	118	0,793333	1,52206E-001	-1,14493E-005	0,00000E+000	1,52005E-001	0,00000E+000	8	.....h.....	1359,17
	119	0,8	1,49830E-001	-3,16473E-005	0,00000E+000	1,49994E-001	0,00000E+000	8	.....h.....	1359,17
	120	0,806667	1,47815E-001	-4,65098E-005	0,00000E+000	1,47995E-001	0,00000E+000	8	.....h.....	1359,17
	121	0,813333	1,45816E-001	-5,20682E-005	0,00000E+000	1,45996E-001	0,00000E+000	8	.....h.....	1359,17
	122	0,82	1,43815E-001	-5,64978E-005	0,00000E+000	1,43997E-001	0,00000E+000	8	.....h.....	1359,17
	123	0,826667	1,41823E-001	-6,01505E-005	0,00000E+000	1,41998E-001	0,00000E+000	8	.....h.....	1359,17
	124	0,833333	1,39824E-001	-6,40570E-005	0,00000E+000	1,39999E-001	0,00000E+000	8	.....h.....	1359,17
	125	0,84	1,37825E-001	-6,78489E-005	0,00000E+000	1,38000E-001	0,00000E+000	8	.....h.....	1359,17
	126	0,846667	1,35830E-001	-7,13598E-005	0,00000E+000	1,36001E-001	0,00000E+000	8	.....h.....	1359,17
	127	0,853333	1,33828E-001	-7,47990E-005	0,00000E+000	1,34002E-001	0,00000E+000	8	.....h.....	1359,17
	128	0,86	1,31834E-001	-7,84347E-005	0,00000E+000	1,32003E-001	0,00000E+000	8	.....h.....	1359,17
	129	0,866667	1,29832E-001	-8,21405E-005	0,00000E+000	1,30004E-001	0,00000E+000	8	.....h.....	1359,17
	130	0,873333	1,27837E-001	-8,49573E-005	0,00000E+000	1,28005E-001	0,00000E+000	8	.....h..i..	1359,17
	131	0,88	1,25839E-001	-8,92881E-005	0,00000E+000	1,26006E-001	0,00000E+000	8	.....h..i..	1359,17
	132	0,886667	1,23908E-001	-1,64523E-004	0,00000E+000	1,23994E-001	0,00000E+000	9	...........	1359,17
	133	0,893333	1,21915E-001	-1,68763E-004	0,00000E+000	1,21995E-001	0,00000E+000	9	...........	1359,17
	134	0,9	1,19910E-001	-1,72655E-004	0,00000E+000	1,19996E-001	0,00000E+000	9	...........	1359,17
	135	0,906667	1,17908E-001	-1,75811E-004	0,00000E+000	1,17997E-001	0,00000E+000	9	...........	1359,17
	136	0,913333	1,15913E-001	-1,78796E-004	0,00000E+000	1,15998E-001	0,00000E+000	9	...........	1359,17
	137	0,92	1,13911E-001	-1,81742E-004	0,00000E+000	1,13999E-001	0,00000E+000	9	...........	1359,17
	138	0,926667	1,11916E-001	-1,83707E-004	0,00000E+000	1,12000E-001	0,00000E+000	9	...........	1359,17
	139	0,933333	1,09917E-001	-1,87623E-004	0,00000E+000	1,10001E-001	0,00000E+000	9	...........	1359,17
	140	0,94	1,07918E-001	-1,90437E-004	0,00000E+000	1,08002E-001	0,00000E+000	9	...........	1359,17
	141	0,946667	1,05919E-001	-1,93137E-004	0,00000E+000	1,06003E-001	0,00000E+000	9	...........	1359,17
	142	0,95333	1,03920E-001	-1,96055E-004	0,00000E+000	1,04004E-001	0,00000E+000	9	...........	1359,17
	143	0,96	1,01919E-001	-1,99676E-004	0,00000E+000	1,02005E-001	0,00000E+000	9	...........	1359,17
	144	0,96667	9,99128E-002	-2,02989E-004	0,00000E+000	9,99937E-002	0,00000E+000	9	...........	1359,17
	145	0,97333	9,79121E-002	-2,04376E-004	0,00000E+000	9,79946E-002	0,00000E+000	9	...........	1359,17
	146	0,98	9,59121E-002	-2,07192E-004	0,00000E+000	9,59956E-002	0,00000E+000	9	...........	1359,17
CURVE2	TABLE
	Pt	T	Vf	Im	Vu	Sig	Ach	IERange	Over	Temp
	#	s	V vs. Ref.	A	V	V	V	#	bits	deg C
	147	0,98667	9,39197E-002	-2,10196E-004	0,00000E+000	9,39966E-002	0,00000E+000	9	...........	1359,17
	148	0,99333	9,19159E-002	-2,12466E-004	0,00000E+000	9,19976E-002	0,00000E+000	9	...........	1359,17
	149	1	8,99174E-002	-2,15543E-004	0,00000E+000	8,99986E-002	0,00000E+000	9	...........	1359,17
	150	1,00667	8,79145E-002	-2,17899E-004	0,00000E+000	8,79996E-002	0,00000E+000	9	...........	1359,17
	151	1,01333	8,59178E-002	-2,20904E-004	0,00000E+000	8,60006E-002	0,00000E+000	9	...........	1359,17
	152	1,02	8,39203E-002	-2,23385E-004	0,00000E+000	8,40015E-002	0,00000E+000	9	...........	1359,17
	153	1,02667	8,19167E-002	-2,26915E-004	0,00000E+000	8,20025E-002	0,00000E+000	9	...........	1359,17
	154	1,03333	7,99204E-002	-2,29119E-004	0,00000E+000	8,00035E-002	0,00000E+000	9	...........	1358,14
	155	1,04	7,79212E-002	-2,32153E-004	0,00000E+000	7,80045E-002	0,00000E+000	9	...........	1358,14
	156	1,04667	7,59246E-002	-2,33847E-004	0,00000E+000	7,60055E-002	0,00000E+000	9	...........	1358,14
	157	1,05333	7,39097E-002	-2,37162E-004	0,00000E+000	7,39940E-002	0,00000E+000	9	...........	1358,14
	158	1,06	7,19104E-002	-2,39295E-004	0,00000E+000	7,19950E-002	0,00000E+000	9	...........	1358,14
	159	1,06667	6,99150E-002	-2,41235E-004	0,00000E+000	6,99960E-002	0,00000E+000	9	...........	1358,14
	160	1,07333	6,79160E-002	-2,43811E-004	0,00000E+000	6,79969E-002	0,00000E+000	9	...........	1358,14
	161	1,08	6,59160E-002	-2,46131E-004	0,00000E+000	6,59979E-002	0,00000E+000	9	...........	1358,14
	162	1,08667	6,39156E-002	-2,49387E-004	0,00000E+000	6,39989E-002	0,00000E+000	9	...........	1358,14
	163	1,09333	6,19179E-002	-2,52019E-004	0,00000E+000	6,19999E-002	0,00000E+000	9	...........	1358,14
	164	1,1	5,99124E-002	-2,54289E-004	0,00000E+000	6,00009E-002	0,00000E+000	9	...........	1358,14
	165	1,10667	5,79160E-002	-2,57259E-004	0,00000E+000	5,80019E-002	0,00000E+000	9	...........	1358,14
	166	1,11333	5,59143E-002	-2,59193E-004	0,00000E+000	5,60029E-002	0,00000E+000	9	...........	1358,14
	167	1,12	5,39153E-002	-2,62066E-004	0,00000E+000	5,40039E-002	0,00000E+000	9	...........	1358,14
	168	1,12667	5,19182E-002	-2,64052E-004	0,00000E+000	5,20048E-002	0,00000E+000	9	...........	1358,14
	169	1,13333	4,99181E-002	-2,66784E-004	0,00000E+000	5,00058E-002	0,00000E+000	9	...........	1358,14
	170	1,14	4,79060E-002	-2,70130E-004	0,00000E+000	4,79943E-002	0,00000E+000	9	...........	1358,14
	171	1,14667	4,59101E-002	-2,71498E-004	0,00000E+000	4,59953E-002	0,00000E+000	9	...........	1358,14
	172	1,15333	4,39114E-002	-2,74806E-004	0,00000E+000	4,39963E-002	0,00000E+000	9	...........	1358,14
	173	1,16	4,19152E-002	-2,76556E-004	0,00000E+000	4,19973E-002	0,00000E+000	9	...........	1358,14
	174	1,16667	3,99125E-002	-2,78970E-004	0,00000E+000	3,99983E-002	0,00000E+000	9	...........	1358,14
	175	1,17333	3,79181E-002	-2,81315E-004	0,00000E+000	3,79993E-002	0,00000E+000	9	...........	1358,14
	176	1,18	3,59166E-002	-2,84864E-004	0,00000E+000	3,60002E-002	0,00000E+000	9	...........	1358,14
	177	1,18667	3,39152E-002	-2,87181E-004	0,00000E+000	3,40012E-002	0,00000E+000	9	...........	1358,14
	178	1,19333	3,19155E-002	-2,88588E-004	0,00000E+000	3,20022E-002	0,00000E+000	9	...........	1358,14
	179	1,2	2,99143E-002	-2,91037E-004	0,00000E+000	3,00032E-002	0,00000E+000	9	...........	1358,14
	180	1,20667	2,79167E-002	-2,93903E-004	0,00000E+000	2,80042E-002	0,00000E+000	9	...........	1358,14
	181	1,21333	2,59172E-002	-2,96281E-004	0,00000E+000	2,60052E-002	0,00000E+000	9	...........	1358,14
	182	1,22	2,39167E-002	-2,99229E-004	0,00000E+000	2,40062E-002	0,00000E+000	9	...........	1358,14
	183	1,22667	2,19077E-002	-3,02216E-004	0,00000E+000	2,19947E-002	0,00000E+000	9	...........	1358,14
	184	1,23333	1,99066E-002	-3,04762E-004	0,00000E+000	1,99956E-002	0,00000E+000	9	...........	1358,14
	185	1,24	1,79065E-002	-3,07166E-004	0,00000E+000	1,79966E-002	0,00000E+000	9	...........	1358,14
	186	1,24667	1,59051E-002	-3,08946E-004	0,00000E+000	1,59976E-002	0,00000E+000	9	...........	1358,14
	187	1,25333	1,39042E-002	-3,12496E-004	0,00000E+000	1,39986E-002	0,00000E+000	9	...........	1358,14
	188	1,26	1,19092E-002	-3,14938E-004	0,00000E+000	1,19996E-002	0,00000E+000	9	...........	1358,14
	189	1,26667	9,91100E-003	-3,17754E-004	0,00000E+000	1,00006E-002	0,00000E+000	9	...........	1358,14
	190	1,27333	7,90985E-003	-3,20530E-004	0,00000E+000	8,00156E-003	0,00000E+000	9	...........	1358,14
	191	1,28	5,90783E-003	-3,23361E-004	0,00000E+000	6,00255E-003	0,00000E+000	9	...........	1358,14
	192	1,28667	3,90717E-003	-3,26262E-004	0,00000E+000	4,00353E-003	0,00000E+000	9	...........	1358,14
	193	1,29333	1,90965E-003	-3,29737E-004	0,00000E+000	2,00452E-003	0,00000E+000	9	...........	1358,14
	194	1,3	-8,52437E-005	-3,31574E-004	0,00000E+000	5,50598E-006	0,00000E+000	9	...........	1358,14